 RMODE NFREQ    PERIOD(S) FREQUENCY(Hz)  C(KM/S)      U(KM/S)      ENERGY       GAMMA(1/KM)  ELLIPTICITY
    0    48    50.000      0.20000E-01   3.9738       3.7940      0.11160E-03  0.82159E-04  0.85361    
    0    49    51.000      0.19608E-01   3.9774       3.8016      0.10842E-03  0.82000E-04  0.85552    
    0    50    52.000      0.19231E-01   3.9808       3.8086      0.10544E-03  0.81833E-04  0.85725    
    0    51    53.000      0.18868E-01   3.9842       3.8151      0.10264E-03  0.81656E-04  0.85882    
    0    52    54.000      0.18519E-01   3.9873       3.8212      0.10000E-03  0.81466E-04  0.86022    
    0    53    55.000      0.18182E-01   3.9904       3.8268      0.97518E-04  0.81263E-04  0.86148    
    0    54    56.000      0.17857E-01   3.9934       3.8320      0.95171E-04  0.81043E-04  0.86259    
    0    55    57.000      0.17544E-01   3.9963       3.8368      0.92950E-04  0.80808E-04  0.86357    
    0    56    58.000      0.17241E-01   3.9992       3.8412      0.90847E-04  0.80556E-04  0.86442    
    0    57    59.000      0.16949E-01   4.0020       3.8453      0.88852E-04  0.80287E-04  0.86515    
    0    58    60.000      0.16667E-01   4.0047       3.8491      0.86957E-04  0.80001E-04  0.86577    
    0    59    61.000      0.16393E-01   4.0073       3.8526      0.85156E-04  0.79698E-04  0.86629    
    0    60    62.000      0.16129E-01   4.0099       3.8559      0.83440E-04  0.79378E-04  0.86671    
    0    61    63.000      0.15873E-01   4.0125       3.8588      0.81806E-04  0.79042E-04  0.86703    
    0    62    64.000      0.15625E-01   4.0150       3.8616      0.80246E-04  0.78690E-04  0.86727    
    0    63    65.000      0.15385E-01   4.0175       3.8640      0.78756E-04  0.78323E-04  0.86743    
    0    64    66.000      0.15152E-01   4.0200       3.8663      0.77331E-04  0.77942E-04  0.86751    
    0    65    67.000      0.14925E-01   4.0225       3.8684      0.75968E-04  0.77546E-04  0.86752    
    0    66    68.000      0.14706E-01   4.0249       3.8702      0.74662E-04  0.77137E-04  0.86746    
    0    67    69.000      0.14493E-01   4.0273       3.8719      0.73410E-04  0.76716E-04  0.86733    
    0    68    70.000      0.14286E-01   4.0297       3.8734      0.72209E-04  0.76283E-04  0.86715    
    0    69    71.000      0.14085E-01   4.0321       3.8747      0.71055E-04  0.75839E-04  0.86691    
    0    70    72.000      0.13889E-01   4.0345       3.8758      0.69946E-04  0.75384E-04  0.86661    
    0    71    73.000      0.13699E-01   4.0369       3.8768      0.68879E-04  0.74921E-04  0.86627    
    0    72    74.000      0.13514E-01   4.0393       3.8776      0.67852E-04  0.74448E-04  0.86588    
    0    73    75.000      0.13333E-01   4.0417       3.8783      0.66863E-04  0.73968E-04  0.86544    
    0    74    76.000      0.13158E-01   4.0441       3.8789      0.65909E-04  0.73481E-04  0.86496    
    0    75    77.000      0.12987E-01   4.0466       3.8793      0.64989E-04  0.72986E-04  0.86445    
    0    76    78.000      0.12821E-01   4.0490       3.8796      0.64101E-04  0.72486E-04  0.86390    
    0    77    79.000      0.12658E-01   4.0514       3.8797      0.63244E-04  0.71981E-04  0.86331    
    0    78    80.000      0.12500E-01   4.0539       3.8798      0.62415E-04  0.71471E-04  0.86270    
    0    79    81.000      0.12346E-01   4.0563       3.8797      0.61613E-04  0.70957E-04  0.86205    
    0    80    82.000      0.12195E-01   4.0588       3.8795      0.60838E-04  0.70440E-04  0.86137    
    0    81    83.000      0.12048E-01   4.0613       3.8792      0.60087E-04  0.69920E-04  0.86067    
    0    82    84.000      0.11905E-01   4.0638       3.8788      0.59360E-04  0.69397E-04  0.85994    
    0    83    85.000      0.11765E-01   4.0663       3.8783      0.58655E-04  0.68872E-04  0.85919    
    0    84    86.000      0.11628E-01   4.0689       3.8777      0.57972E-04  0.68346E-04  0.85842    
    0    85    87.000      0.11494E-01   4.0714       3.8771      0.57309E-04  0.67819E-04  0.85763    
    0    86    88.000      0.11364E-01   4.0740       3.8763      0.56666E-04  0.67292E-04  0.85681    
    0    87    89.000      0.11236E-01   4.0766       3.8754      0.56041E-04  0.66764E-04  0.85598    
    0    88    90.000      0.11111E-01   4.0793       3.8745      0.55434E-04  0.66236E-04  0.85514    
    0    89    91.000      0.10989E-01   4.0819       3.8735      0.54844E-04  0.65709E-04  0.85428    
    0    90    92.000      0.10870E-01   4.0846       3.8724      0.54270E-04  0.65183E-04  0.85340    
    0    91    93.000      0.10753E-01   4.0873       3.8712      0.53711E-04  0.64658E-04  0.85251    
    0    92    94.000      0.10638E-01   4.0900       3.8699      0.53168E-04  0.64134E-04  0.85161    
    0    93    95.000      0.10526E-01   4.0928       3.8686      0.52639E-04  0.63612E-04  0.85069    
    0    94    96.000      0.10417E-01   4.0956       3.8672      0.52124E-04  0.63092E-04  0.84977    
    0    95    97.000      0.10309E-01   4.0984       3.8657      0.51622E-04  0.62574E-04  0.84883    
    0    96    98.000      0.10204E-01   4.1012       3.8642      0.51132E-04  0.62058E-04  0.84789    
    0    97    99.000      0.10101E-01   4.1041       3.8626      0.50654E-04  0.61546E-04  0.84694    
    0    98    100.00      0.10000E-01   4.1070       3.8610      0.50188E-04  0.61035E-04  0.84598    
    0    99    101.00      0.99010E-02   4.1099       3.8593      0.49734E-04  0.60528E-04  0.84501    
    0   100    102.00      0.98039E-02   4.1129       3.8575      0.49290E-04  0.60024E-04  0.84403    
    0   101    103.00      0.97087E-02   4.1159       3.8557      0.48856E-04  0.59523E-04  0.84305    
    0   102    104.00      0.96154E-02   4.1189       3.8538      0.48432E-04  0.59025E-04  0.84207    
    0   103    105.00      0.95238E-02   4.1219       3.8519      0.48018E-04  0.58531E-04  0.84108    
    0   104    106.00      0.94340E-02   4.1250       3.8500      0.47612E-04  0.58040E-04  0.84008    
    0   105    107.00      0.93458E-02   4.1281       3.8480      0.47216E-04  0.57553E-04  0.83908    
    0   106    108.00      0.92593E-02   4.1313       3.8459      0.46828E-04  0.57070E-04  0.83808    
    0   107    109.00      0.91743E-02   4.1345       3.8438      0.46449E-04  0.56591E-04  0.83707    
    0   108    110.00      0.90909E-02   4.1377       3.8417      0.46077E-04  0.56115E-04  0.83606    
    0   109    111.00      0.90090E-02   4.1409       3.8395      0.45713E-04  0.55644E-04  0.83505    
    0   110    112.00      0.89286E-02   4.1442       3.8373      0.45356E-04  0.55176E-04  0.83404    
    0   111    113.00      0.88496E-02   4.1475       3.8350      0.45006E-04  0.54712E-04  0.83302    
    0   112    114.00      0.87719E-02   4.1508       3.8327      0.44663E-04  0.54253E-04  0.83201    
    0   113    115.00      0.86957E-02   4.1542       3.8304      0.44327E-04  0.53798E-04  0.83099    
    0   114    116.00      0.86207E-02   4.1576       3.8281      0.43996E-04  0.53346E-04  0.82997    
    0   115    117.00      0.85470E-02   4.1611       3.8257      0.43672E-04  0.52899E-04  0.82895    
    0   116    118.00      0.84746E-02   4.1646       3.8233      0.43354E-04  0.52456E-04  0.82793    
    0   117    119.00      0.84034E-02   4.1681       3.8209      0.43042E-04  0.52017E-04  0.82692    
    0   118    120.00      0.83333E-02   4.1716       3.8184      0.42735E-04  0.51582E-04  0.82590    
    0   119    121.00      0.82645E-02   4.1752       3.8159      0.42433E-04  0.51152E-04  0.82488    
    0   120    122.00      0.81967E-02   4.1788       3.8134      0.42137E-04  0.50726E-04  0.82386    
    0   121    123.00      0.81301E-02   4.1825       3.8109      0.41845E-04  0.50303E-04  0.82285    
    0   122    124.00      0.80645E-02   4.1862       3.8084      0.41559E-04  0.49885E-04  0.82184    
    0   123    125.00      0.80000E-02   4.1899       3.8058      0.41277E-04  0.49471E-04  0.82082    
    0   124    126.00      0.79365E-02   4.1936       3.8032      0.40999E-04  0.49061E-04  0.81981    
    0   125    127.00      0.78740E-02   4.1974       3.8006      0.40726E-04  0.48656E-04  0.81880    
    0   126    128.00      0.78125E-02   4.2013       3.7980      0.40457E-04  0.48254E-04  0.81780    
    0   127    129.00      0.77519E-02   4.2051       3.7954      0.40192E-04  0.47856E-04  0.81679    
    0   128    130.00      0.76923E-02   4.2090       3.7928      0.39931E-04  0.47463E-04  0.81579    
    0   129    131.00      0.76336E-02   4.2130       3.7901      0.39673E-04  0.47073E-04  0.81479    
    0   130    132.00      0.75758E-02   4.2169       3.7875      0.39420E-04  0.46687E-04  0.81380    
    0   131    133.00      0.75188E-02   4.2209       3.7848      0.39170E-04  0.46306E-04  0.81280    
    0   132    134.00      0.74627E-02   4.2250       3.7822      0.38923E-04  0.45928E-04  0.81181    
    0   133    135.00      0.74074E-02   4.2291       3.7795      0.38680E-04  0.45554E-04  0.81083    
    0   134    136.00      0.73529E-02   4.2332       3.7768      0.38440E-04  0.45184E-04  0.80984    
    0   135    137.00      0.72993E-02   4.2373       3.7741      0.38203E-04  0.44817E-04  0.80887    
    0   136    138.00      0.72464E-02   4.2415       3.7715      0.37969E-04  0.44455E-04  0.80789    
    0   137    139.00      0.71942E-02   4.2457       3.7688      0.37738E-04  0.44096E-04  0.80692    
    0   138    140.00      0.71429E-02   4.2500       3.7661      0.37510E-04  0.43740E-04  0.80595    
    0   139    141.00      0.70922E-02   4.2543       3.7634      0.37284E-04  0.43389E-04  0.80498    
    0   140    142.00      0.70423E-02   4.2586       3.7607      0.37061E-04  0.43041E-04  0.80402    
    0   141    143.00      0.69930E-02   4.2629       3.7581      0.36841E-04  0.42696E-04  0.80307    
    0   142    144.00      0.69444E-02   4.2673       3.7554      0.36624E-04  0.42356E-04  0.80212    
    0   143    145.00      0.68966E-02   4.2718       3.7527      0.36409E-04  0.42018E-04  0.80117    
    0   144    146.00      0.68493E-02   4.2762       3.7501      0.36196E-04  0.41684E-04  0.80023    
    0   145    147.00      0.68027E-02   4.2807       3.7474      0.35985E-04  0.41353E-04  0.79929    
    0   146    148.00      0.67568E-02   4.2853       3.7448      0.35777E-04  0.41026E-04  0.79836    
    0   147    149.00      0.67114E-02   4.2898       3.7421      0.35571E-04  0.40702E-04  0.79743    
    0   148    150.00      0.66667E-02   4.2945       3.7395      0.35367E-04  0.40381E-04  0.79651    
